Folder: pchem-II-lab-materials-worked/diffraction

Note: diffraction/scratch.md
# photoelectric scratch notes
probably get rid of the processing multiple spectra different ways thing.
I think we just truncate the zero values and do a linear trendline, nothing else makes sense.
I'll get a better sense for how this should go if I'm using the worked version for my scratch and not the student handout version.
I think I have a solid vision for this; I don't need to bloat it and I already have all the code we need.

yeah we're pretty much there, we've got it...
Letting them do the vlab for the first part of this might be good?
But I don't get why they're gonna do a vlab of something they're doing in real life

Eh, we do our best
I think I just need to make sure that ... I'm going through the actual concepts and not just programming
This is just like going through using an instrument. 

The concept I want to demonstrate here is thinking through how you would set up the problem and solve it.
and then just using the code to *do* that. 

But that's hard to do, some students just won't get it if I make it too open ended.
I'm on a tight deadline anyways. I'll stick with what I have and make it good. We'll see how students
respond, then we can adjust.

The more important thing is making a cheatsheet for students so that they don't trip over basic syntax.

File: KCl.csv
KCl,
2θ - °,Intensity - cps
10,6906.7
10.24,6626.7
10.48,6866.7
10.72,6813.3
10.96,6960
11.2,6253.3
11.44,7040
11.68,6853.3
11.92,6493.3
12.16,6680
12.4,7146.7
12.64,6640
12.88,6813.3
13.12,6626.7
13.36,6613.3
13.6,6413.3
13.84,6746.7
14.08,6893.3
14.32,6266.7
14.56,6746.7
14.8,7200
15.04,6840
15.28,6653.3
15.52,6533.3
15.76,6720
16,7013.3
16.24,6680
16.48,6373.3
16.72,6813.3
16.96,6600
17.2,6613.3
17.44,6786.7
17.68,6600
17.92,6640
18.16,6680
18.4,6293.3
18.64,6106.7
18.88,6133.3
19.12,6293.3
19.36,6560
19.6,6613.3
19.84,6173.3
20.08,6146.7
20.32,6266.7
20.56,6093.3
20.8,6000
21.04,6226.7
21.28,6293.3
21.52,6373.3
21.76,5866.7
22,5920
22.24,5853.3
22.48,5840
22.72,5720
22.96,6146.7
23.2,5746.7
23.44,5520
23.68,5586.7
23.92,5346.7
24.16,5626.7
24.4,5413.3
24.64,5293.3
24.88,5253.3
25.12,5466.7
25.36,4733.3
25.6,5080
25.84,5013.3
26.08,4800
26.32,4613.3
26.56,4773.3
26.8,4546.7
27.04,4280
27.28,4360
27.52,4626.7
27.76,4893.3
28,4773.3
28.24,7240
28.48,44453
28.72,7746.7
28.96,4680
29.2,4640
29.44,4293.3
29.68,4053.3
29.92,4333.3
30.16,3973.3
30.4,4053.3
30.64,3986.7
30.88,3760
31.12,4013.3
31.36,3853.3
31.6,3920
31.84,4253.3
32.08,3733.3
32.32,3800
32.56,3973.3
32.8,3813.3
33.04,3733.3
33.28,3400
33.52,3373.3
33.76,3640
34,3453.3
34.24,3506.7
34.48,3693.3
34.72,3360
34.96,3133.3
35.2,3573.3
35.44,3400
35.68,3186.7
35.92,3466.7
36.16,3493.3
36.4,3413.3
36.64,3133.3
36.88,3240
37.12,3186.7
37.36,3080
37.6,3240
37.84,3080
38.08,3400
38.32,3160
38.56,3373.3
38.8,3120
39.04,3293.3
39.28,3306.7
39.52,3346.7
39.76,3546.7
40,3480
40.24,3933.3
40.48,7373.3
40.72,26107
40.96,4506.7
41.2,3733.3
41.44,3333.3
41.68,3133.3
41.92,3186.7
42.16,2906.7
42.4,3306.7
42.64,3146.7
42.88,3173.3
43.12,3120
43.36,3026.7
43.6,3160
43.84,3066.7
44.08,3013.3
44.32,3266.7
44.56,3000
44.8,3040
45.04,3186.7
45.28,3226.7
45.52,3200
45.76,3133.3
46,3200
46.24,3093.3
46.48,3026.7
46.72,3146.7
46.96,3000
47.2,3133.3
47.44,2693.3
47.68,2760
47.92,2986.7
48.16,3413.3
48.4,2973.3
48.64,2986.7
48.88,3106.7
49.12,2866.7
49.36,2920
49.6,2933.3
49.84,3013.3
50.08,3600
50.32,11000
50.56,4106.7
50.8,2920
51.04,2933.3
51.28,2706.7
51.52,3146.7
51.76,2826.7
52,2946.7
52.24,2760
52.48,2866.7
52.72,2973.3
52.96,2773.3
53.2,2880
53.44,2893.3
53.68,2733.3
53.92,2626.7
54.16,2706.7
54.4,2826.7
54.64,2613.3
54.88,2893.3
55.12,3040
55.36,2680
55.6,2626.7
55.84,2800
56.08,2813.3
56.32,3026.7
56.56,2760
56.8,2866.7
57.04,3066.7
57.28,2973.3
57.52,2880
57.76,2960
58,2853.3
58.24,2800
58.48,3266.7
58.72,7480
58.96,5200
59.2,3080
59.44,3040
59.68,2893.3
59.92,2960
60.16,3186.7
60.4,2880
60.64,2853.3
60.88,2800
61.12,3253.3
61.36,2693.3
61.6,2840
61.84,2880
62.08,2586.7
62.32,2960
62.56,2720
62.8,2760
63.04,2853.3
63.28,2813.3
63.52,2800
63.76,2773.3
64,2826.7
64.24,2840
64.48,2880
64.72,2786.7
64.96,2946.7
65.2,2733.3
65.44,2733.3
65.68,2626.7
65.92,3053.3
66.16,3920
66.4,11813
66.64,16013
66.88,4106.7
67.12,3160
67.36,2906.7
67.6,2746.7
67.84,2826.7
68.08,2720
68.32,2946.7
68.56,2680
68.8,2613.3
69.04,2533.3
69.28,2693.3
69.52,2613.3
69.76,2600
70,2773.3
70.24,2506.7
70.48,2480
70.72,2693.3
70.96,2306.7
71.2,2666.7
71.44,2453.3
71.68,2506.7
71.92,2560
72.16,2560
72.4,2400
72.64,2560
72.88,2333.3
73.12,2613.3
73.36,2893.3
73.6,3226.7
73.84,10440
74.08,6000
74.32,2586.7
74.56,2240
74.8,2200
75.04,2293.3
75.28,2400
75.52,2453.3
75.76,2253.3
76,1986.7
76.24,2080
76.48,2013.3
76.72,2000
76.96,2240
77.2,2160
77.44,2040
77.68,2146.7
77.92,2066.7
78.16,1920
78.4,2253.3
78.64,2026.7
78.88,1933.3
79.12,1986.7
79.36,2093.3
79.6,2293.3
79.84,1960
80,2120