Folder: pchem-II-lab-materials-worked/diffraction/.ipynb_checkpoints

File: NaCl-checkpoint.csv
NaCl,,Be Pd,,,Cd Ga2 Se4,,
2θ - °,Intensity - cps,2θ - °,Y,Intensity - cps,2θ - °,Y,Intensity - cps
10,6746.7,31.78508,0,4003.008,27.36702,0,4752.298
10.24,6693.3,,,,,,
10.48,6853.3,,,,,,
10.72,7120,,,,,,
10.96,7266.7,,,,,,
11.2,6866.7,,,,,,
11.44,7426.7,,,,,,
11.68,7213.3,,,,,,
11.92,7373.3,,,,,,
12.16,7026.7,,,,,,
12.4,7253.3,,,,,,
12.64,6533.3,,,,,,
12.88,6733.3,,,,,,
13.12,6906.7,,,,,,
13.36,7306.7,,,,,,
13.6,7173.3,,,,,,
13.84,6973.3,,,,,,
14.08,7386.7,,,,,,
14.32,7133.3,,,,,,
14.56,7200,,,,,,
14.8,7253.3,,,,,,
15.04,6853.3,,,,,,
15.28,6760,,,,,,
15.52,7373.3,,,,,,
15.76,6786.7,,,,,,
16,7266.7,,,,,,
16.24,6933.3,,,,,,
16.48,6906.7,,,,,,
16.72,7013.3,,,,,,
16.96,7173.3,,,,,,
17.2,6906.7,,,,,,
17.44,6946.7,,,,,,
17.68,7066.7,,,,,,
17.92,6906.7,,,,,,
18.16,6640,,,,,,
18.4,6853.3,,,,,,
18.64,6213.3,,,,,,
18.88,6613.3,,,,,,
19.12,6586.7,,,,,,
19.36,6680,,,,,,
19.6,6653.3,,,,,,
19.84,6440,,,,,,
20.08,6440,,,,,,
20.32,6400,,,,,,
20.56,6400,,,,,,
20.8,6160,,,,,,
21.04,6693.3,,,,,,
21.28,6560,,,,,,
21.52,6173.3,,,,,,
21.76,5920,,,,,,
22,6226.7,,,,,,
22.24,6386.7,,,,,,
22.48,6146.7,,,,,,
22.72,5600,,,,,,
22.96,5706.7,,,,,,
23.2,5920,,,,,,
23.44,6200,,,,,,
23.68,5546.7,,,,,,
23.92,5333.3,,,,,,
24.16,5946.7,,,,,,
24.4,5746.7,,,,,,
24.64,5560,,,,,,
24.88,5440,,,,,,
25.12,5400,,,,,,
25.36,5080,,,,,,
25.6,5106.7,,,,,,
25.84,5146.7,,,,,,
26.08,5040,,,,,,
26.32,4760,,,,,,
26.56,4906.7,,,,,,
26.8,5053.3,,,,,,
27.04,4746.7,,,,,,
27.28,5506.7,,,,,,
27.52,11027,,,,,,
27.76,4906.7,,,,,,
28,4613.3,,,,,,
28.24,4640,,,,,,
28.48,4666.7,,,,,,
28.72,4466.7,,,,,,
28.96,4080,,,,,,
29.2,4520,,,,,,
29.44,4160,,,,,,
29.68,4400,,,,,,
29.92,4320,,,,,,
30.16,4040,,,,,,
30.4,4053.3,,,,,,
30.64,4373.3,,,,,,
30.88,4306.7,,,,,,
31.12,4626.7,,,,,,
31.36,5053.3,,,,,,
31.6,10547,,,,,,
31.84,89787,,,,,,
32.08,8893.3,,,,,,
32.32,4720,,,,,,
32.56,4626.7,,,,,,
32.8,4000,,,,,,
33.04,3920,,,,,,
33.28,4266.7,,,,,,
33.52,3906.7,,,,,,
33.76,3893.3,,,,,,
34,3880,,,,,,
34.24,3546.7,,,,,,
34.48,3693.3,,,,,,
34.72,3933.3,,,,,,
34.96,3800,,,,,,
35.2,3733.3,,,,,,
35.44,3613.3,,,,,,
35.68,3546.7,,,,,,
35.92,4026.7,,,,,,
36.16,3640,,,,,,
36.4,3466.7,,,,,,
36.64,3760,,,,,,
36.88,3613.3,,,,,,
37.12,3573.3,,,,,,
37.36,3480,,,,,,
37.6,3293.3,,,,,,
37.84,3213.3,,,,,,
38.08,3160,,,,,,
38.32,3346.7,,,,,,
38.56,3560,,,,,,
38.8,3333.3,,,,,,
39.04,3466.7,,,,,,
39.28,3120,,,,,,
39.52,3346.7,,,,,,
39.76,3146.7,,,,,,
40,3280,,,,,,
40.24,3293.3,,,,,,
40.48,3280,,,,,,
40.72,3720,,,,,,
40.96,3546.7,,,,,,
41.2,3373.3,,,,,,
41.44,3240,,,,,,
41.68,3133.3,,,,,,
41.92,3440,,,,,,
42.16,3253.3,,,,,,
42.4,3306.7,,,,,,
42.64,3080,,,,,,
42.88,3200,,,,,,
43.12,3266.7,,,,,,
43.36,3120,,,,,,
43.6,3200,,,,,,
43.84,3480,,,,,,
44.08,3520,,,,,,
44.32,3626.7,,,,,,
44.56,3466.7,,,,,,
44.8,3853.3,,,,,,
45.04,4000,,,,,,
45.28,5666.7,,,,,,
45.52,54293,,,,,,
45.76,21507,,,,,,
46,4360,,,,,,
46.24,4200,,,,,,
46.48,3626.7,,,,,,
46.72,3120,,,,,,
46.96,3013.3,,,,,,
47.2,3413.3,,,,,,
47.44,3346.7,,,,,,
47.68,3480,,,,,,
47.92,3226.7,,,,,,
48.16,3280,,,,,,
48.4,3293.3,,,,,,
48.64,3333.3,,,,,,
48.88,3333.3,,,,,,
49.12,3120,,,,,,
49.36,3400,,,,,,
49.6,3200,,,,,,
49.84,3160,,,,,,
50.08,3226.7,,,,,,
50.32,3453.3,,,,,,
50.56,3053.3,,,,,,
50.8,3346.7,,,,,,
51.04,3146.7,,,,,,
51.28,3013.3,,,,,,
51.52,3186.7,,,,,,
51.76,3200,,,,,,
52,3506.7,,,,,,
52.24,3000,,,,,,
52.48,3213.3,,,,,,
52.72,3320,,,,,,
52.96,3426.7,,,,,,
53.2,2946.7,,,,,,
53.44,3360,,,,,,
53.68,3160,,,,,,
53.92,4466.7,,,,,,
54.16,3880,,,,,,
54.4,3253.3,,,,,,
54.64,3120,,,,,,
54.88,3533.3,,,,,,
55.12,3493.3,,,,,,
55.36,3133.3,,,,,,
55.6,3440,,,,,,
55.84,3200,,,,,,
56.08,3120,,,,,,
56.32,4306.7,,,,,,
56.56,18907,,,,,,
56.8,8746.7,,,,,,
57.04,3506.7,,,,,,
57.28,3253.3,,,,,,
57.52,3600,,,,,,
57.76,3586.7,,,,,,
58,3520,,,,,,
58.24,3546.7,,,,,,
58.48,3333.3,,,,,,
58.72,3226.7,,,,,,
58.96,3253.3,,,,,,
59.2,2933.3,,,,,,
59.44,2960,,,,,,
59.68,3333.3,,,,,,
59.92,3000,,,,,,
60.16,3093.3,,,,,,
60.4,2973.3,,,,,,
60.64,3013.3,,,,,,
60.88,3186.7,,,,,,
61.12,2706.7,,,,,,
61.36,2933.3,,,,,,
61.6,3106.7,,,,,,
61.84,3000,,,,,,
62.08,2786.7,,,,,,
62.32,2706.7,,,,,,
62.56,2906.7,,,,,,
62.8,2920,,,,,,
63.04,3240,,,,,,
63.28,2826.7,,,,,,
63.52,2720,,,,,,
63.76,2880,,,,,,
64,2613.3,,,,,,
64.24,2866.7,,,,,,
64.48,2853.3,,,,,,
64.72,2453.3,,,,,,
64.96,2946.7,,,,,,
65.2,2786.7,,,,,,
65.44,2893.3,,,,,,
65.68,3013.3,,,,,,
65.92,3146.7,,,,,,
66.16,4706.7,,,,,,
66.4,7293.3,,,,,,
66.64,3506.7,,,,,,
66.88,3213.3,,,,,,
67.12,2906.7,,,,,,
67.36,3093.3,,,,,,
67.6,2906.7,,,,,,
67.84,3026.7,,,,,,
68.08,2906.7,,,,,,
68.32,2613.3,,,,,,
68.56,2933.3,,,,,,
68.8,2746.7,,,,,,
69.04,2906.7,,,,,,
69.28,2680,,,,,,
69.52,2773.3,,,,,,
69.76,2866.7,,,,,,
70,2840,,,,,,
70.24,2840,,,,,,
70.48,2800,,,,,,
70.72,2733.3,,,,,,
70.96,2426.7,,,,,,
71.2,2786.7,,,,,,
71.44,3000,,,,,,
71.68,2706.7,,,,,,
71.92,2520,,,,,,
72.16,2640,,,,,,
72.4,2720,,,,,,
72.64,2773.3,,,,,,
72.88,2760,,,,,,
73.12,4266.7,,,,,,
73.36,3560,,,,,,
73.6,2853.3,,,,,,
73.84,2520,,,,,,
74.08,2853.3,,,,,,
74.32,2640,,,,,,
74.56,3026.7,,,,,,
74.8,3013.3,,,,,,
75.04,3706.7,,,,,,
75.28,21133,,,,,,
75.52,15493,,,,,,
75.76,3826.7,,,,,,
76,2773.3,,,,,,
76.24,2520,,,,,,
76.48,2626.7,,,,,,
76.72,2413.3,,,,,,
76.96,2586.7,,,,,,
77.2,2506.7,,,,,,
77.44,2466.7,,,,,,
77.68,2373.3,,,,,,
77.92,2346.7,,,,,,
78.16,2573.3,,,,,,
78.4,2400,,,,,,
78.64,2573.3,,,,,,
78.88,2093.3,,,,,,
79.12,2106.7,,,,,,
79.36,2480,,,,,,
79.6,2320,,,,,,
79.84,2586.7,,,,,,
80,2333.3,,,,,,